{
  "resourceType": "Bundle",
  "id": "Pathology-Bundle-RenalFunctionTests-Example",
  "meta": {
    "lastUpdated": "2020-09-20T10:22:00+00:00",
    "profile": [ "https://fhir.hl7.org.uk/StructureDefinition/UKCore-Bundle" ]
  },
  "identifier": {
    "system": "https://tools.ietf.org/html/rfc4122",
    "value": "g36927ef-7703-45ed-b0e5-6ec6723cf0g7"
  },
  "type": "message",
  "entry": [ {
    "fullUrl": "urn:uuid:7f883ed3-d19d-4edf-972e-03052cb94113",
    "resource": {
      "resourceType": "MessageHeader",
      "meta": {
        "profile": [ "https://fhir.hl7.org.uk/StructureDefinition/UKCore-MessageHeader" ]
      },
      "eventCoding": {
        "system": "http://snomed.info/sct",
        "code": "371528001",
        "display": "Pathology report"
      },
      "destination": [ {
        "name": "MANOR GP PRACTICE",
        "endpoint": "llp:10.11.12.14:7777",
        "receiver": {
          "reference": "urn:uuid:cf7a76d3-5b44-4194-a9e0-d1cc1ea5e51f"
        }
      } ],
      "sender": {
        "reference": "urn:uuid:e6407de7-0e86-45eb-93cb-035094aaa50f"
      },
      "source": {
        "endpoint": "NOROT003"
      },
      "focus": [ {
        "reference": "urn:uuid:ffae5859-28df-4e7d-be91-6df56d8215f5"
      } ]
    }
  }, {
    "fullUrl": "urn:uuid:e6407de7-0e86-45eb-93cb-035094aaa50f",
    "resource": {
      "resourceType": "Organization",
      "meta": {
        "profile": [ "https://fhir.hl7.org.uk/StructureDefinition/UKCore-Organization" ]
      },
      "identifier": [ {
        "system": "https://fhir.nhs.uk/Id/ods-organization-code",
        "value": "RBE77"
      } ],
      "name": "Midtown District Hospital (Blood Sciences)",
      "address": [ {
        "line": [ "MIDTOWN NHS FOUNDATION TRUST", "BlOOD SCIENCES", "KING STREET" ],
        "city": "MIDTOWN",
        "district": "MIDTOWNSHIRE",
        "postalCode": "MD9 7TF"
      } ]
    }
  }, {
    "fullUrl": "urn:uuid:cf7a76d3-5b44-4194-a9e0-d1cc1ea5e51f",
    "resource": {
      "resourceType": "Organization",
      "meta": {
        "profile": [ "https://fhir.hl7.org.uk/StructureDefinition/UKCore-Organization" ]
      },
      "identifier": [ {
        "system": "https://fhir.nhs.uk/Id/ods-organization-code",
        "value": "D77014"
      } ],
      "name": "MANOR GP PRACTICE",
      "address": [ {
        "line": [ "10/12 MANOR STREET" ],
        "city": "MIDTOWN",
        "district": "MIDTOWNSHIRE",
        "postalCode": "MD37 7AH"
      } ]
    }
  }, {
    "fullUrl": "urn:uuid:2c9793d4-aa5e-419f-9f4e-b61736d01d35",
    "resource": {
      "resourceType": "Practitioner",
      "meta": {
        "profile": [ "https://fhir.hl7.org.uk/StructureDefinition/UKCore-Practitioner" ]
      },
      "identifier": [ {
        "system": "https://fhir.nhs.uk/Id/sds-user-id",
        "value": "3415870356"
      } ],
      "name": [ {
        "use": "official",
        "family": "Green",
        "given": [ "Jane" ],
        "prefix": [ "Dr" ],
        "suffix": [ "MB ChB", "RCGP" ]
      } ]
    }
  }, {
    "fullUrl": "urn:uuid:aa098351-1f2b-4b97-acec-44b528d443fd",
    "resource": {
      "resourceType": "Patient",
      "meta": {
        "profile": [ "https://fhir.hl7.org.uk/StructureDefinition/UKCore-Patient" ]
      },
      "identifier": [ {
        "extension": [ {
          "url": "https://fhir.hl7.org.uk/StructureDefinition/Extension-UKCore-NHSNumberVerificationStatus",
          "valueCodeableConcept": {
            "coding": [ {
              "system": "https://fhir.hl7.org.uk/CodeSystem/UKCore-NHSNumberVerificationStatusEngland",
              "code": "01",
              "display": "Number present and verified"
            } ]
          }
        } ],
        "system": "https://fhir.nhs.uk/Id/nhs-number",
        "value": "9432003812"
      } ],
      "name": [ {
        "use": "official",
        "family": "Stanner",
        "given": [ "Lisa" ]
      } ],
      "gender": "female",
      "birthDate": "1960-05-20"
    }
  }, {
    "fullUrl": "urn:uuid:8fcba023-12e9-4f22-94b6-03cab7c0777a",
    "resource": {
      "resourceType": "ServiceRequest",
      "meta": {
        "profile": [ "https://fhir.hl7.org.uk/StructureDefinition/UKCore-ServiceRequest" ]
      },
      "identifier": [ {
        "system": "https://tools.ietf.org/html/rfc4122",
        "value": "8f9bbd01-4e52-420d-b05b-48bc671d6819"
      } ],
      "status": "active",
      "intent": "order",
      "code": {
        "coding": [ {
          "system": "http://snomed.info/sct",
          "code": "54610007",
          "display": "Kidney panel"
        } ]
      },
      "subject": {
        "reference": "urn:uuid:aa098351-1f2b-4b97-acec-44b528d443fd",
        "display": "STANNER, Lisa"
      },
      "requester": {
        "reference": "urn:uuid:2c9793d4-aa5e-419f-9f4e-b61736d01d35",
        "display": "GREEN"
      },
      "performer": [ {
        "reference": "urn:uuid:cf7a76d3-5b44-4194-a9e0-d1cc1ea5e51f",
        "display": "MANOR GP PRACTICE"
      } ]
    }
  }, {
    "fullUrl": "urn:uuid:ffae5859-28df-4e7d-be91-6df56d8215f5",
    "resource": {
      "resourceType": "DiagnosticReport",
      "meta": {
        "profile": [ "https://fhir.hl7.org.uk/StructureDefinition/UKCore-DiagnosticReport" ]
      },
      "identifier": [ {
        "system": "http://acme.com/MidtownDHL/reports",
        "value": "5234355"
      } ],
      "basedOn": [ {
        "reference": "urn:uuid:8fcba023-12e9-4f22-94b6-03cab7c0777a"
      } ],
      "status": "final",
      "code": {
        "coding": [ {
          "system": "http://snomed.info/sct",
          "code": "721981007",
          "display": "Diagnostic studies report"
        } ]
      },
      "subject": {
        "reference": "urn:uuid:aa098351-1f2b-4b97-acec-44b528d443fd",
        "display": "STANNER, Lisa"
      },
      "issued": "2019-11-04T12:00:00+00:00",
      "performer": [ {
        "reference": "urn:uuid:e6407de7-0e86-45eb-93cb-035094aaa50f",
        "display": "Midtown District Hospital (Blood Sciences)"
      } ],
      "specimen": [ {
        "reference": "urn:uuid:9d3e52ff-b39b-4cef-9957-7bdac97d8e13"
      } ],
      "result": [ {
        "reference": "urn:uuid:ebcb177a-9501-4dcc-8b22-b941791ae1ec"
      } ]
    }
  }, {
    "fullUrl": "urn:uuid:9d3e52ff-b39b-4cef-9957-7bdac97d8e13",
    "resource": {
      "resourceType": "Specimen",
      "meta": {
        "profile": [ "https://fhir.hl7.org.uk/StructureDefinition/UKCore-Specimen" ]
      },
      "identifier": [ {
        "system": "https://tools.ietf.org/html/rfc4122",
        "value": "2c663fc5-9dec-49c0-9eed-18a7cfa5a6c3"
      } ],
      "accessionIdentifier": {
        "system": "http://lab.acme.org/specimens/2020/MidtownDHL",
        "value": "X352377"
      },
      "status": "available",
      "type": {
        "coding": [ {
          "system": "http://snomed.info/sct",
          "code": "119361006",
          "display": "Plasma specimen"
        } ]
      },
      "subject": {
        "reference": "urn:uuid:aa098351-1f2b-4b97-acec-44b528d443fd",
        "display": "STANNER, Lisa"
      },
      "receivedTime": "2019-11-01T15:00:00+00:00",
      "collection": {
        "collectedDateTime": "2019-11-01T11:00:00+00:00"
      }
    }
  }, {
    "fullUrl": "urn:uuid:ebcb177a-9501-4dcc-8b22-b941791ae1ec",
    "resource": {
      "resourceType": "Observation",
      "meta": {
        "profile": [ "https://fhir.hl7.org.uk/StructureDefinition/UKCore-Observation" ]
      },
      "identifier": [ {
        "system": "https://tools.ietf.org/html/rfc4122",
        "value": "5ff46949-4938-4c57-bad4-c4363e1965g7"
      } ],
      "status": "final",
      "code": {
        "coding": [ {
          "system": "http://snomed.info/sct",
          "code": "1015971000000100",
          "display": "Renal function tests"
        } ]
      },
      "subject": {
        "reference": "urn:uuid:aa098351-1f2b-4b97-acec-44b528d443fd",
        "display": "STANNER, Lisa"
      },
      "effectiveDateTime": "2019-11-01T15:00:00+00:00",
      "performer": [ {
        "reference": "urn:uuid:e6407de7-0e86-45eb-93cb-035094aaa50f",
        "display": "Midtown District Hospital (Blood Sciences)"
      } ],
      "specimen": {
        "reference": "urn:uuid:9d3e52ff-b39b-4cef-9957-7bdac97d8e13"
      },
      "hasMember": [ {
        "reference": "urn:uuid:6690bbb3-9a74-4426-9787-35d0caeab76d"
      }, {
        "reference": "urn:uuid:bb99bda1-a118-4463-806d-c88681c842b9"
      }, {
        "reference": "urn:uuid:5eda41b3-4f58-45e1-9854-458d89d38162"
      }, {
        "reference": "urn:uuid:b3751035-ee56-4135-a265-8dfa0e8b0683"
      }, {
        "reference": "urn:uuid:108a4300-b289-4806-add6-32aad4725370"
      } ]
    }
  }, {
    "fullUrl": "urn:uuid:6690bbb3-9a74-4426-9787-35d0caeab76d",
    "resource": {
      "resourceType": "Observation",
      "meta": {
        "profile": [ "https://fhir.hl7.org.uk/StructureDefinition/UKCore-Observation" ]
      },
      "identifier": [ {
        "system": "https://tools.ietf.org/html/rfc4122",
        "value": "6gf46949-4938-4c57-bad4-c4363e1965h8"
      } ],
      "status": "final",
      "code": {
        "coding": [ {
          "system": "http://snomed.info/sct",
          "code": "1107871000000107",
          "display": "Sodium substance concentration in serum"
        } ]
      },
      "subject": {
        "reference": "urn:uuid:aa098351-1f2b-4b97-acec-44b528d443fd",
        "display": "STANNER, Lisa"
      },
      "effectiveDateTime": "2019-11-01T15:00:00+00:00",
      "performer": [ {
        "reference": "urn:uuid:e6407de7-0e86-45eb-93cb-035094aaa50f",
        "display": "Midtown District Hospital (Blood Sciences)"
      } ],
      "valueQuantity": {
        "value": 142,
        "unit": "mmol/L",
        "system": "https://unitsofmeasure.org",
        "code": "mmol/L"
      },
      "specimen": {
        "reference": "urn:uuid:9d3e52ff-b39b-4cef-9957-7bdac97d8e13"
      },
      "referenceRange": [ {
        "low": {
          "value": 133
        },
        "high": {
          "value": 146
        }
      } ]
    }
  }, {
    "fullUrl": "urn:uuid:bb99bda1-a118-4463-806d-c88681c842b9",
    "resource": {
      "resourceType": "Observation",
      "meta": {
        "profile": [ "https://fhir.hl7.org.uk/StructureDefinition/UKCore-Observation" ]
      },
      "identifier": [ {
        "system": "https://tools.ietf.org/html/rfc4122",
        "value": "7if46949-4938-4c57-bad4-c4363e1965i8"
      } ],
      "status": "final",
      "code": {
        "coding": [ {
          "system": "http://snomed.info/sct",
          "code": "1107761000000109",
          "display": "Potassium substance concentration in serum"
        } ]
      },
      "subject": {
        "reference": "urn:uuid:aa098351-1f2b-4b97-acec-44b528d443fd",
        "display": "STANNER, Lisa"
      },
      "effectiveDateTime": "2019-11-01T15:00:00+00:00",
      "performer": [ {
        "reference": "urn:uuid:e6407de7-0e86-45eb-93cb-035094aaa50f",
        "display": "Midtown District Hospital (Blood Sciences)"
      } ],
      "valueQuantity": {
        "value": 4.8,
        "unit": "mmol/L",
        "system": "https://unitsofmeasure.org",
        "code": "mmol/L"
      },
      "specimen": {
        "reference": "urn:uuid:9d3e52ff-b39b-4cef-9957-7bdac97d8e13"
      },
      "referenceRange": [ {
        "low": {
          "value": 3.5
        },
        "high": {
          "value": 5.3
        }
      } ]
    }
  }, {
    "fullUrl": "urn:uuid:5eda41b3-4f58-45e1-9854-458d89d38162",
    "resource": {
      "resourceType": "Observation",
      "meta": {
        "profile": [ "https://fhir.hl7.org.uk/StructureDefinition/UKCore-Observation" ]
      },
      "identifier": [ {
        "system": "https://tools.ietf.org/html/rfc4122",
        "value": "8jf46949-4938-4c57-bad4-c4363e1965j8"
      } ],
      "status": "final",
      "code": {
        "coding": [ {
          "system": "http://snomed.info/sct",
          "code": "1106511000000102",
          "display": "Chloride substance concentration in serum"
        } ]
      },
      "subject": {
        "reference": "urn:uuid:aa098351-1f2b-4b97-acec-44b528d443fd",
        "display": "STANNER, Lisa"
      },
      "effectiveDateTime": "2019-11-01T15:00:00+00:00",
      "performer": [ {
        "reference": "urn:uuid:e6407de7-0e86-45eb-93cb-035094aaa50f",
        "display": "Midtown District Hospital (Blood Sciences)"
      } ],
      "valueQuantity": {
        "value": 105,
        "unit": "mmol/L",
        "system": "https://unitsofmeasure.org",
        "code": "mmol/L"
      },
      "specimen": {
        "reference": "urn:uuid:9d3e52ff-b39b-4cef-9957-7bdac97d8e13"
      },
      "referenceRange": [ {
        "low": {
          "value": 95
        },
        "high": {
          "value": 108
        }
      } ]
    }
  }, {
    "fullUrl": "urn:uuid:b3751035-ee56-4135-a265-8dfa0e8b0683",
    "resource": {
      "resourceType": "Observation",
      "meta": {
        "profile": [ "https://fhir.hl7.org.uk/StructureDefinition/UKCore-Observation" ]
      },
      "identifier": [ {
        "system": "https://tools.ietf.org/html/rfc4122",
        "value": "8kf46949-4938-4c57-bad4-c4363e1965k8"
      } ],
      "status": "final",
      "code": {
        "coding": [ {
          "system": "http://snomed.info/sct",
          "code": "1107001000000108",
          "display": "Creatinine substance concentration in serum"
        } ]
      },
      "subject": {
        "reference": "urn:uuid:aa098351-1f2b-4b97-acec-44b528d443fd",
        "display": "STANNER, Lisa"
      },
      "effectiveDateTime": "2019-11-01T15:00:00+00:00",
      "performer": [ {
        "reference": "urn:uuid:e6407de7-0e86-45eb-93cb-035094aaa50f",
        "display": "Midtown District Hospital (Blood Sciences)"
      } ],
      "valueQuantity": {
        "value": 64,
        "unit": "umol/L",
        "system": "https://unitsofmeasure.org",
        "code": "umol/L"
      },
      "specimen": {
        "reference": "urn:uuid:9d3e52ff-b39b-4cef-9957-7bdac97d8e13"
      },
      "referenceRange": [ {
        "low": {
          "value": 48
        },
        "high": {
          "value": 128
        }
      } ]
    }
  }, {
    "fullUrl": "urn:uuid:108a4300-b289-4806-add6-32aad4725370",
    "resource": {
      "resourceType": "Observation",
      "meta": {
        "profile": [ "https://fhir.hl7.org.uk/StructureDefinition/UKCore-Observation" ]
      },
      "identifier": [ {
        "system": "https://tools.ietf.org/html/rfc4122",
        "value": "9lf46949-4938-4c57-bad4-c4363e1965l9"
      } ],
      "status": "final",
      "code": {
        "coding": [ {
          "system": "http://snomed.info/sct",
          "code": "1107411000000104",
          "display": "Estimated glomerular filtration rate by laboratory calculation"
        } ]
      },
      "subject": {
        "reference": "urn:uuid:aa098351-1f2b-4b97-acec-44b528d443fd",
        "display": "STANNER, Lisa"
      },
      "effectiveDateTime": "2019-11-01T15:00:00+00:00",
      "performer": [ {
        "reference": "urn:uuid:e6407de7-0e86-45eb-93cb-035094aaa50f",
        "display": "Midtown District Hospital (Blood Sciences)"
      } ],
      "valueQuantity": {
        "value": 87,
        "unit": "mL/min/1.73m2",
        "system": "https://unitsofmeasure.org",
        "code": "mL/min/((173/100).m2)"
      },
      "note": [ {
        "text": "The EGFR quoted must be multiplied by 1.2 if the patient is of Afro-Caribbean origin."
      } ],
      "specimen": {
        "reference": "urn:uuid:9d3e52ff-b39b-4cef-9957-7bdac97d8e13"
      }
    }
  } ]
}