{
  "resourceType": "Bundle",
  "id": "Pathology-Bundle-ProstateSpecificAntigenTest-Example",
  "meta": {
    "lastUpdated": "2020-09-20T10:22:00+00:00",
    "profile": [ "https://fhir.hl7.org.uk/StructureDefinition/UKCore-Bundle" ]
  },
  "identifier": {
    "system": "https://tools.ietf.org/html/rfc4122",
    "value": "f36927ef-7703-45ed-b0e5-6ec6723cf0f6"
  },
  "type": "message",
  "entry": [ {
    "fullUrl": "urn:uuid:a4409d7c-b613-477c-b623-87e60406c2f0",
    "resource": {
      "resourceType": "MessageHeader",
      "meta": {
        "profile": [ "https://fhir.hl7.org.uk/StructureDefinition/UKCore-MessageHeader" ]
      },
      "eventCoding": {
        "system": "http://snomed.info/sct",
        "code": "371528001",
        "display": "Pathology report"
      },
      "destination": [ {
        "name": "THE BRIDGE STREET SURGERY",
        "endpoint": "llp:10.11.12.14:5555",
        "receiver": {
          "reference": "urn:uuid:bf7a76d3-5b44-4194-a9e0-d1cc1ea5e50e"
        }
      } ],
      "sender": {
        "reference": "urn:uuid:d6407de7-0e86-45eb-93cb-035094aaa49e"
      },
      "source": {
        "endpoint": "NOROT003"
      },
      "focus": [ {
        "reference": "urn:uuid:efae5859-28df-4e7d-be91-6df56d8215e4"
      } ]
    }
  }, {
    "fullUrl": "urn:uuid:d6407de7-0e86-45eb-93cb-035094aaa49e",
    "resource": {
      "resourceType": "Organization",
      "meta": {
        "profile": [ "https://fhir.hl7.org.uk/StructureDefinition/UKCore-Organization" ]
      },
      "identifier": [ {
        "system": "https://fhir.nhs.uk/Id/ods-organization-code",
        "value": "RGD12"
      } ],
      "name": "Lingfield Royal Infirmary (Blood Sciences)",
      "address": [ {
        "line": [ "Lingfield NHS Foundation Trust", "Blood Sciences", "BECKETT STREET" ],
        "city": "LINGFIELD",
        "district": "WEST YORKSHIRE",
        "postalCode": "LI9 7TF"
      } ]
    }
  }, {
    "fullUrl": "urn:uuid:e78b5421-8d55-4f61-8cbf-bee1c69513f1",
    "resource": {
      "resourceType": "Organization",
      "meta": {
        "profile": [ "https://fhir.hl7.org.uk/StructureDefinition/UKCore-Organization" ]
      },
      "identifier": [ {
        "system": "https://fhir.nhs.uk/Id/ods-organization-code",
        "value": "RGD12"
      } ],
      "name": "Lingfield Royal Infirmary (Oncology)",
      "address": [ {
        "line": [ "Lingfield NHS Foundation Trust", "Oncology Department", "BECKETT STREET" ],
        "city": "LINGFIELD",
        "district": "WEST YORKSHIRE",
        "postalCode": "LI9 7TF"
      } ]
    }
  }, {
    "fullUrl": "urn:uuid:bf7a76d3-5b44-4194-a9e0-d1cc1ea5e50e",
    "resource": {
      "resourceType": "Organization",
      "meta": {
        "profile": [ "https://fhir.hl7.org.uk/StructureDefinition/UKCore-Organization" ]
      },
      "identifier": [ {
        "system": "https://fhir.nhs.uk/Id/ods-organization-code",
        "value": "D82015"
      } ],
      "name": "THE BRIDGE STREET SURGERY",
      "address": [ {
        "line": [ "30/32 BRIDGE STREET" ],
        "city": "DOWNHAM MARKET",
        "district": "NORFOLK",
        "postalCode": "PE38 9DH"
      } ]
    }
  }, {
    "fullUrl": "urn:uuid:f25e9d63-6a4e-4de6-b9dc-c912fda62b01",
    "resource": {
      "resourceType": "Practitioner",
      "meta": {
        "profile": [ "https://fhir.hl7.org.uk/StructureDefinition/UKCore-Practitioner" ]
      },
      "identifier": [ {
        "system": "https://fhir.nhs.uk/Id/sds-user-id",
        "value": "3415870223"
      } ],
      "name": [ {
        "use": "official",
        "family": "Khan",
        "given": [ "Ibrahim" ],
        "prefix": [ "Dr" ],
        "suffix": [ "MB ChB", "RCP" ]
      } ]
    }
  }, {
    "fullUrl": "urn:uuid:8d6c2cd5-0eec-496a-88d0-3785a135df09",
    "resource": {
      "resourceType": "Patient",
      "meta": {
        "profile": [ "https://fhir.hl7.org.uk/StructureDefinition/UKCore-Patient" ]
      },
      "identifier": [ {
        "extension": [ {
          "url": "https://fhir.hl7.org.uk/StructureDefinition/Extension-UKCore-NHSNumberVerificationStatus",
          "valueCodeableConcept": {
            "coding": [ {
              "system": "https://fhir.hl7.org.uk/CodeSystem/UKCore-NHSNumberVerificationStatusEngland",
              "code": "01",
              "display": "Number present and verified"
            } ]
          }
        } ],
        "system": "https://fhir.nhs.uk/Id/nhs-number",
        "value": "9432003812"
      } ],
      "name": [ {
        "use": "official",
        "family": "Davies",
        "given": [ "Michael" ]
      } ],
      "gender": "male",
      "birthDate": "1961-12-29"
    }
  }, {
    "fullUrl": "urn:uuid:d9df1431-22ac-462a-946a-f195f6c639af",
    "resource": {
      "resourceType": "ServiceRequest",
      "meta": {
        "profile": [ "https://fhir.hl7.org.uk/StructureDefinition/UKCore-ServiceRequest" ]
      },
      "identifier": [ {
        "system": "https://tools.ietf.org/html/rfc4122",
        "value": "7e9bbd01-4e52-420d-b05b-48bc671d6708"
      } ],
      "status": "active",
      "intent": "order",
      "code": {
        "coding": [ {
          "system": "http://snomed.info/sct",
          "code": "63476009",
          "display": "Prostate specific antigen measurement"
        } ]
      },
      "subject": {
        "reference": "urn:uuid:8d6c2cd5-0eec-496a-88d0-3785a135df09",
        "display": "DAVIES, Michael"
      },
      "requester": {
        "reference": "urn:uuid:f25e9d63-6a4e-4de6-b9dc-c912fda62b01",
        "display": "KHAN"
      },
      "performer": [ {
        "reference": "urn:uuid:e78b5421-8d55-4f61-8cbf-bee1c69513f1",
        "display": "Lingfield Royal Infirmary (Oncology)"
      } ]
    }
  }, {
    "fullUrl": "urn:uuid:efae5859-28df-4e7d-be91-6df56d8215e4",
    "resource": {
      "resourceType": "DiagnosticReport",
      "meta": {
        "profile": [ "https://fhir.hl7.org.uk/StructureDefinition/UKCore-DiagnosticReport" ]
      },
      "identifier": [ {
        "system": "http://acme.com/LingfieldRIL/reports",
        "value": "5234344"
      } ],
      "basedOn": [ {
        "reference": "urn:uuid:d9df1431-22ac-462a-946a-f195f6c639af"
      } ],
      "status": "final",
      "code": {
        "coding": [ {
          "system": "http://snomed.info/sct",
          "code": "721981007",
          "display": "Diagnostic studies report"
        } ]
      },
      "subject": {
        "reference": "urn:uuid:8d6c2cd5-0eec-496a-88d0-3785a135df09",
        "display": "DAVIES, Michael"
      },
      "issued": "2019-01-30T12:00:00+00:00",
      "performer": [ {
        "reference": "urn:uuid:d6407de7-0e86-45eb-93cb-035094aaa49e",
        "display": "Lingfield Royal Infirmary (Blood Sciences)"
      } ],
      "specimen": [ {
        "reference": "urn:uuid:756a8361-79ce-4561-afcb-a91fe19df123"
      } ],
      "result": [ {
        "reference": "urn:uuid:dacb177a-9501-4dcc-8b22-b941791ae0db"
      } ]
    }
  }, {
    "fullUrl": "urn:uuid:756a8361-79ce-4561-afcb-a91fe19df123",
    "resource": {
      "resourceType": "Specimen",
      "meta": {
        "profile": [ "https://fhir.hl7.org.uk/StructureDefinition/UKCore-Specimen" ]
      },
      "identifier": [ {
        "system": "https://tools.ietf.org/html/rfc4122",
        "value": "1b663fc5-9dec-49c0-9eed-18a7cfa5a6b2"
      } ],
      "accessionIdentifier": {
        "system": "http://lab.acme.org/specimens/2020/LingfieldRIL",
        "value": "X352366"
      },
      "status": "available",
      "type": {
        "coding": [ {
          "system": "http://snomed.info/sct",
          "code": "119361006",
          "display": "Plasma specimen"
        } ]
      },
      "subject": {
        "reference": "urn:uuid:8d6c2cd5-0eec-496a-88d0-3785a135df09",
        "display": "DAVIES, Michael"
      },
      "receivedTime": "2019-01-29T15:00:00+00:00",
      "collection": {
        "collectedDateTime": "2019-01-29T11:00:00+00:00"
      }
    }
  }, {
    "fullUrl": "urn:uuid:dacb177a-9501-4dcc-8b22-b941791ae0db",
    "resource": {
      "resourceType": "Observation",
      "meta": {
        "profile": [ "https://fhir.hl7.org.uk/StructureDefinition/UKCore-Observation" ]
      },
      "identifier": [ {
        "system": "https://tools.ietf.org/html/rfc4122",
        "value": "2af46949-4938-4c57-bad4-c4363e1965d5"
      } ],
      "status": "final",
      "code": {
        "coding": [ {
          "system": "http://snomed.info/sct",
          "code": "1107801000000104",
          "display": "Prostate specific antigen mass concentration in plasma"
        } ]
      },
      "subject": {
        "reference": "urn:uuid:8d6c2cd5-0eec-496a-88d0-3785a135df09",
        "display": "DAVIES, Michael"
      },
      "effectiveDateTime": "2019-01-29T16:00:00+00:00",
      "performer": [ {
        "reference": "urn:uuid:d6407de7-0e86-45eb-93cb-035094aaa49e",
        "display": "Lingfield Royal Infirmary (Blood Sciences)"
      } ],
      "valueQuantity": {
        "value": 5.9,
        "unit": "ug/L",
        "system": "https://unitsofmeasure.org",
        "code": "ug/L"
      },
      "specimen": {
        "reference": "urn:uuid:756a8361-79ce-4561-afcb-a91fe19df123"
      },
      "referenceRange": [ {
        "low": {
          "value": 0
        },
        "high": {
          "value": 4
        }
      } ]
    }
  } ]
}