{
  "resourceType": "Bundle",
  "id": "Pathology-Bundle-Urine-MCS-01-Report-Example",
  "meta": {
    "lastUpdated": "2022-02-25T13:47:00+00:00",
    "profile": [ "https://fhir.hl7.org.uk/StructureDefinition/UKCore-Bundle" ]
  },
  "identifier": {
    "system": "https://tools.ietf.org/html/rfc4122",
    "value": "86834956-dc57-4b90-8f1b-6174a887ca27"
  },
  "type": "message",
  "entry": [ {
    "fullUrl": "urn:uuid:f18a2226-c0ab-480d-b80a-b6561fe8f9c4",
    "resource": {
      "resourceType": "MessageHeader",
      "meta": {
        "profile": [ "https://fhir.hl7.org.uk/StructureDefinition/UKCore-MessageHeader" ]
      },
      "eventCoding": {
        "system": "http://snomed.info/sct",
        "code": "371528001",
        "display": "Pathology report"
      },
      "destination": [ {
        "name": "PICKERING MEDICAL PRACTICE",
        "endpoint": "TBC",
        "receiver": {
          "reference": "urn:uuid:3c43b5b3-06d6-445f-ae9a-48d5f05df434"
        }
      } ],
      "sender": {
        "reference": "urn:uuid:8a6d85b8-9837-4fed-a257-4cf207988338"
      },
      "source": {
        "endpoint": "TBC"
      },
      "focus": [ {
        "reference": "urn:uuid:35d46ca1-f253-4c97-b7ee-fb5fccdf6c20"
      } ],
      "definition": "https://fhir.nhs.uk/England/MessageDefinition/England-Pathology-Report"
    }
  }, {
    "fullUrl": "urn:uuid:8a6d85b8-9837-4fed-a257-4cf207988338",
    "resource": {
      "resourceType": "Organization",
      "meta": {
        "profile": [ "https://fhir.hl7.org.uk/StructureDefinition/UKCore-Organization" ]
      },
      "identifier": [ {
        "system": "https://fhir.nhs.uk/Id/ods-organization-code",
        "value": "Y8J7D"
      } ],
      "name": "TD008362 PATH LAB 001",
      "address": [ {
        "line": [ "PATHOLOGY LAB", "7-8 WELLINGTON PLACE" ],
        "city": "LEEDS",
        "district": "WEST YORKSHIRE",
        "postalCode": "LS1 4AP"
      } ]
    }
  }, {
    "fullUrl": "urn:uuid:3c43b5b3-06d6-445f-ae9a-48d5f05df434",
    "resource": {
      "resourceType": "Organization",
      "meta": {
        "profile": [ "https://fhir.hl7.org.uk/StructureDefinition/UKCore-Organization" ]
      },
      "identifier": [ {
        "system": "https://fhir.nhs.uk/Id/ods-organization-code",
        "value": "B82033"
      } ],
      "name": "PICKERING MEDICAL PRACTICE",
      "address": [ {
        "line": [ "SOUTHGATE" ],
        "city": "PICKERING",
        "district": "NORTH YORKSHIRE",
        "postalCode": "YO18 8BL"
      } ]
    }
  }, {
    "fullUrl": "urn:uuid:9a835acf-d715-4d84-8dcf-a8435f6417fe",
    "resource": {
      "resourceType": "Practitioner",
      "meta": {
        "profile": [ "https://fhir.hl7.org.uk/StructureDefinition/UKCore-Practitioner" ]
      },
      "identifier": [ {
        "system": "https://fhir.nhs.uk/Id/sds-user-id",
        "value": "TBC"
      } ],
      "name": [ {
        "use": "official",
        "family": "GASKELL",
        "given": [ "Gale" ],
        "prefix": [ "Dr" ]
      } ]
    }
  }, {
    "fullUrl": "urn:uuid:ab87a3f8-1d37-44a9-804e-5e962598a6e4",
    "resource": {
      "resourceType": "Patient",
      "meta": {
        "profile": [ "https://fhir.hl7.org.uk/StructureDefinition/UKCore-Patient" ]
      },
      "identifier": [ {
        "extension": [ {
          "url": "https://fhir.hl7.org.uk/StructureDefinition/Extension-UKCore-NHSNumberVerificationStatus",
          "valueCodeableConcept": {
            "coding": [ {
              "system": "https://fhir.hl7.org.uk/CodeSystem/UKCore-NHSNumberVerificationStatusEngland",
              "code": "01",
              "display": "Number present and verified"
            } ]
          }
        } ],
        "system": "https://fhir.nhs.uk/Id/nhs-number",
        "value": "9727710859"
      } ],
      "name": [ {
        "use": "official",
        "family": "MOXEY",
        "given": [ "Judy" ]
      } ],
      "gender": "female",
      "birthDate": "2004-05-06",
      "address": [ {
        "line": [ "1 CASTLEGATE" ],
        "city": "PICKERING",
        "district": "NORTH YORKSHIRE",
        "postalCode": "YO18 7AY"
      } ]
    }
  }, {
    "fullUrl": "urn:uuid:1c38d507-9ad7-4b49-ba91-7da204842cac",
    "resource": {
      "resourceType": "ServiceRequest",
      "meta": {
        "profile": [ "https://fhir.hl7.org.uk/StructureDefinition/UKCore-ServiceRequest-Lab" ]
      },
      "identifier": [ {
        "system": "http://B82033-pickeringmedicalpractice.com/labrequest",
        "value": "REQ-20220221-000018"
      } ],
      "status": "active",
      "intent": "order",
      "code": {
        "coding": [ {
          "system": "http://snomed.info/sct",
          "code": "401324008",
          "display": "Urinary microscopy, culture and sensitivities"
        } ]
      },
      "subject": {
        "reference": "urn:uuid:ab87a3f8-1d37-44a9-804e-5e962598a6e4",
        "display": "MOXEY, Judy"
      },
      "authoredOn": "2022-02-21T10:29:00+00:00",
      "requester": {
        "reference": "urn:uuid:9a835acf-d715-4d84-8dcf-a8435f6417fe",
        "display": "GASKELL, Dr Gale"
      },
      "performer": [ {
        "reference": "urn:uuid:8a6d85b8-9837-4fed-a257-4cf207988338",
        "display": "TD008362 PATH LAB 001"
      } ]
    }
  }, {
    "fullUrl": "urn:uuid:bde5b0a5-4fb3-4655-acf0-215b93aee006",
    "resource": {
      "resourceType": "Specimen",
      "meta": {
        "profile": [ "https://fhir.hl7.org.uk/StructureDefinition/UKCore-Specimen" ]
      },
      "identifier": [ {
        "system": "http://B82033-pickeringmedicalpractice.com/specimen",
        "value": "SPC-REQ-20220221-000024"
      } ],
      "accessionIdentifier": {
        "system": "http://Y8J7D-pathlab001.com/specimen",
        "value": "SPC-LAB-20220221-004306"
      },
      "status": "available",
      "type": {
        "coding": [ {
          "system": "http://snomed.info/sct",
          "code": "122575003",
          "display": "Urine specimen"
        } ]
      },
      "subject": {
        "reference": "urn:uuid:ab87a3f8-1d37-44a9-804e-5e962598a6e4",
        "display": "MOXEY, Judy"
      },
      "receivedTime": "2022-02-21T14:58:00+00:00",
      "request": [ {
        "reference": "urn:uuid:1c38d507-9ad7-4b49-ba91-7da204842cac"
      } ],
      "collection": {
        "collectedDateTime": "2022-02-21T11:07:00+00:00"
      }
    }
  }, {
    "fullUrl": "urn:uuid:35d46ca1-f253-4c97-b7ee-fb5fccdf6c20",
    "resource": {
      "resourceType": "DiagnosticReport",
      "meta": {
        "profile": [ "https://fhir.hl7.org.uk/StructureDefinition/UKCore-DiagnosticReport-Lab" ]
      },
      "identifier": [ {
        "system": "http://Y8J7D-pathlab001.com/report",
        "value": "REP-20220225-006301"
      } ],
      "basedOn": [ {
        "reference": "urn:uuid:1c38d507-9ad7-4b49-ba91-7da204842cac"
      } ],
      "status": "final",
      "category": [ {
        "coding": [ {
          "system": "http://terminology.hl7.org/CodeSystem/v2-0074",
          "code": "LAB",
          "display": "Laboratory"
        } ]
      } ],
      "code": {
        "coding": [ {
          "system": "http://snomed.info/sct",
          "code": "721981007",
          "display": "Diagnostic studies report"
        } ]
      },
      "subject": {
        "reference": "urn:uuid:ab87a3f8-1d37-44a9-804e-5e962598a6e4",
        "display": "MOXEY, Judy"
      },
      "issued": "2022-02-25T13:47:00+00:00",
      "performer": [ {
        "reference": "urn:uuid:8a6d85b8-9837-4fed-a257-4cf207988338",
        "display": "TD008362 PATH LAB 001"
      } ],
      "specimen": [ {
        "reference": "urn:uuid:bde5b0a5-4fb3-4655-acf0-215b93aee006"
      } ],
      "result": [ {
        "reference": "urn:uuid:bd867909-49ca-4a4b-b02f-162790b6800f"
      }, {
        "reference": "urn:uuid:70af0ca7-a77a-4daa-8aa2-1740433b1c3e"
      } ],
      "conclusion": "Likely to be clinically significant."
    }
  }, {
    "fullUrl": "urn:uuid:bd867909-49ca-4a4b-b02f-162790b6800f",
    "resource": {
      "resourceType": "Observation",
      "meta": {
        "profile": [ "https://fhir.hl7.org.uk/StructureDefinition/UKCore-Observation-Group-Lab" ]
      },
      "identifier": [ {
        "system": "https://tools.ietf.org/html/rfc4122",
        "value": "02875aea-9815-4d1d-b34e-f9f29b859d02"
      } ],
      "status": "final",
      "category": [ {
        "coding": [ {
          "system": "http://terminology.hl7.org/CodeSystem/observation-category",
          "code": "laboratory",
          "display": "Laboratory"
        } ]
      } ],
      "code": {
        "coding": [ {
          "system": "http://snomed.info/sct",
          "code": "127800008",
          "display": "Microscopic urinalysis"
        } ]
      },
      "subject": {
        "reference": "urn:uuid:ab87a3f8-1d37-44a9-804e-5e962598a6e4",
        "display": "MOXEY, Judy"
      },
      "issued": "2022-02-25T13:47:00+00:00",
      "performer": [ {
        "reference": "urn:uuid:8a6d85b8-9837-4fed-a257-4cf207988338",
        "display": "TD008362 PATH LAB 001"
      } ],
      "hasMember": [ {
        "reference": "urn:uuid:17ec651c-1b6f-43e9-9033-cbb49dbac3db"
      }, {
        "reference": "urn:uuid:3dc8d5d8-90ef-485c-ad67-d2e3c83ed83f"
      }, {
        "reference": "urn:uuid:fce26593-20ee-45b6-b805-7eb7d0f0a3fa"
      }, {
        "reference": "urn:uuid:a4b0fa1f-8679-45bb-82a2-85e4e1bd519a"
      } ]
    }
  }, {
    "fullUrl": "urn:uuid:17ec651c-1b6f-43e9-9033-cbb49dbac3db",
    "resource": {
      "resourceType": "Observation",
      "meta": {
        "profile": [ "https://fhir.hl7.org.uk/StructureDefinition/UKCore-Observation-Lab" ]
      },
      "identifier": [ {
        "system": "https://tools.ietf.org/html/rfc4122",
        "value": "eab75d90-ce08-40a4-8247-34aad0d58873"
      } ],
      "status": "final",
      "category": [ {
        "coding": [ {
          "system": "http://terminology.hl7.org/CodeSystem/observation-category",
          "code": "laboratory",
          "display": "Laboratory"
        } ]
      } ],
      "code": {
        "coding": [ {
          "system": "http://snomed.info/sct",
          "code": "51761000237101",
          "display": "Hyaline casts in mid-stream urine microscopy qualitative result"
        } ]
      },
      "subject": {
        "reference": "urn:uuid:ab87a3f8-1d37-44a9-804e-5e962598a6e4",
        "display": "MOXEY, Judy"
      },
      "issued": "2022-02-25T13:47:00+00:00",
      "performer": [ {
        "reference": "urn:uuid:8a6d85b8-9837-4fed-a257-4cf207988338",
        "display": "TD008362 PATH LAB 001"
      } ],
      "valueCodeableConcept": {
        "coding": [ {
          "system": "http://snomed.info/sct",
          "code": "47492008",
          "display": "Not seen"
        } ]
      },
      "specimen": {
        "reference": "urn:uuid:bde5b0a5-4fb3-4655-acf0-215b93aee006"
      }
    }
  }, {
    "fullUrl": "urn:uuid:3dc8d5d8-90ef-485c-ad67-d2e3c83ed83f",
    "resource": {
      "resourceType": "Observation",
      "meta": {
        "profile": [ "https://fhir.hl7.org.uk/StructureDefinition/UKCore-Observation-Lab" ]
      },
      "identifier": [ {
        "system": "https://tools.ietf.org/html/rfc4122",
        "value": "e644abd4-2587-486b-b6fe-ea3be866df29"
      } ],
      "status": "final",
      "category": [ {
        "coding": [ {
          "system": "http://terminology.hl7.org/CodeSystem/observation-category",
          "code": "laboratory",
          "display": "Laboratory"
        } ]
      } ],
      "code": {
        "coding": [ {
          "system": "http://snomed.info/sct",
          "code": "42331000237103",
          "display": "White blood cell count in urine"
        } ]
      },
      "subject": {
        "reference": "urn:uuid:ab87a3f8-1d37-44a9-804e-5e962598a6e4",
        "display": "MOXEY, Judy"
      },
      "issued": "2022-02-25T13:47:00+00:00",
      "performer": [ {
        "reference": "urn:uuid:8a6d85b8-9837-4fed-a257-4cf207988338",
        "display": "TD008362 PATH LAB 001"
      } ],
      "valueQuantity": {
        "value": 35,
        "comparator": ">",
        "unit": "x10*6/L",
        "system": "http://unitsofmeasure.org",
        "code": "10^6/L"
      },
      "specimen": {
        "reference": "urn:uuid:bde5b0a5-4fb3-4655-acf0-215b93aee006"
      }
    }
  }, {
    "fullUrl": "urn:uuid:fce26593-20ee-45b6-b805-7eb7d0f0a3fa",
    "resource": {
      "resourceType": "Observation",
      "meta": {
        "profile": [ "https://fhir.hl7.org.uk/StructureDefinition/UKCore-Observation-Lab" ]
      },
      "identifier": [ {
        "system": "https://tools.ietf.org/html/rfc4122",
        "value": "fc9d8f93-5cc7-43e8-8816-f4f438221b9f"
      } ],
      "status": "final",
      "category": [ {
        "coding": [ {
          "system": "http://terminology.hl7.org/CodeSystem/observation-category",
          "code": "laboratory",
          "display": "Laboratory"
        } ]
      } ],
      "code": {
        "coding": [ {
          "system": "http://snomed.info/sct",
          "code": "43331000237105",
          "display": "Red blood cell count in urine"
        } ]
      },
      "subject": {
        "reference": "urn:uuid:ab87a3f8-1d37-44a9-804e-5e962598a6e4",
        "display": "MOXEY, Judy"
      },
      "issued": "2022-02-25T13:47:00+00:00",
      "performer": [ {
        "reference": "urn:uuid:8a6d85b8-9837-4fed-a257-4cf207988338",
        "display": "TD008362 PATH LAB 001"
      } ],
      "valueRange": {
        "low": {
          "value": 10,
          "unit": "x10*6/L",
          "system": "http://unitsofmeasure.org",
          "code": "10^6/L"
        },
        "high": {
          "value": 35,
          "unit": "x10*6/L",
          "system": "http://unitsofmeasure.org",
          "code": "10^6/L"
        }
      },
      "specimen": {
        "reference": "urn:uuid:bde5b0a5-4fb3-4655-acf0-215b93aee006"
      }
    }
  }, {
    "fullUrl": "urn:uuid:a4b0fa1f-8679-45bb-82a2-85e4e1bd519a",
    "resource": {
      "resourceType": "Observation",
      "meta": {
        "profile": [ "https://fhir.hl7.org.uk/StructureDefinition/UKCore-Observation-Lab" ]
      },
      "identifier": [ {
        "system": "https://tools.ietf.org/html/rfc4122",
        "value": "db372648-314a-481a-a793-736b0ec3be76"
      } ],
      "status": "final",
      "category": [ {
        "coding": [ {
          "system": "http://terminology.hl7.org/CodeSystem/observation-category",
          "code": "laboratory",
          "display": "Laboratory"
        } ]
      } ],
      "code": {
        "coding": [ {
          "system": "http://snomed.info/sct",
          "code": "49941000237104",
          "display": "Epithelial cells in mid-stream urine microscopy qualitative result"
        } ]
      },
      "subject": {
        "reference": "urn:uuid:ab87a3f8-1d37-44a9-804e-5e962598a6e4",
        "display": "MOXEY, Judy"
      },
      "issued": "2022-02-25T13:47:00+00:00",
      "performer": [ {
        "reference": "urn:uuid:8a6d85b8-9837-4fed-a257-4cf207988338",
        "display": "TD008362 PATH LAB 001"
      } ],
      "valueCodeableConcept": {
        "coding": [ {
          "system": "http://snomed.info/sct",
          "code": "260347006",
          "display": "Present + out of ++++"
        } ]
      },
      "specimen": {
        "reference": "urn:uuid:bde5b0a5-4fb3-4655-acf0-215b93aee006"
      }
    }
  }, {
    "fullUrl": "urn:uuid:70af0ca7-a77a-4daa-8aa2-1740433b1c3e",
    "resource": {
      "resourceType": "Observation",
      "meta": {
        "profile": [ "https://fhir.hl7.org.uk/StructureDefinition/UKCore-Observation-Group-Lab" ]
      },
      "identifier": [ {
        "system": "https://tools.ietf.org/html/rfc4122",
        "value": "147dbdea-22e1-4327-8407-b92bf362e115"
      } ],
      "status": "final",
      "category": [ {
        "coding": [ {
          "system": "http://terminology.hl7.org/CodeSystem/observation-category",
          "code": "laboratory",
          "display": "Laboratory"
        } ]
      } ],
      "code": {
        "coding": [ {
          "system": "http://snomed.info/sct",
          "code": "117010004",
          "display": "Urine culture"
        } ]
      },
      "subject": {
        "reference": "urn:uuid:ab87a3f8-1d37-44a9-804e-5e962598a6e4",
        "display": "MOXEY, Judy"
      },
      "issued": "2022-02-25T13:47:00+00:00",
      "performer": [ {
        "reference": "urn:uuid:8a6d85b8-9837-4fed-a257-4cf207988338",
        "display": "TD008362 PATH LAB 001"
      } ],
      "hasMember": [ {
        "reference": "urn:uuid:25ab7b5f-a888-4928-8195-e4153f5f909b"
      }, {
        "reference": "urn:uuid:329c8c3f-461f-4b61-b93d-374d354d0c98"
      } ]
    }
  }, {
    "fullUrl": "urn:uuid:25ab7b5f-a888-4928-8195-e4153f5f909b",
    "resource": {
      "resourceType": "Observation",
      "meta": {
        "profile": [ "https://fhir.hl7.org.uk/StructureDefinition/UKCore-Observation-Lab" ]
      },
      "identifier": [ {
        "system": "https://tools.ietf.org/html/rfc4122",
        "value": "83f33ad5-caf9-42f1-b85e-3382fd1718b8"
      } ],
      "status": "final",
      "category": [ {
        "coding": [ {
          "system": "http://terminology.hl7.org/CodeSystem/observation-category",
          "code": "laboratory",
          "display": "Laboratory"
        } ]
      } ],
      "code": {
        "coding": [ {
          "system": "http://snomed.info/sct",
          "code": "42881000237105",
          "display": "Staphylococcus aureus culture qualitative result"
        } ]
      },
      "subject": {
        "reference": "urn:uuid:ab87a3f8-1d37-44a9-804e-5e962598a6e4",
        "display": "MOXEY, Judy"
      },
      "issued": "2022-02-25T13:47:00+00:00",
      "performer": [ {
        "reference": "urn:uuid:8a6d85b8-9837-4fed-a257-4cf207988338",
        "display": "TD008362 PATH LAB 001"
      } ],
      "valueCodeableConcept": {
        "coding": [ {
          "system": "http://snomed.info/sct",
          "code": "263866000",
          "display": "Scanty growth"
        } ]
      },
      "specimen": {
        "reference": "urn:uuid:bde5b0a5-4fb3-4655-acf0-215b93aee006"
      }
    }
  }, {
    "fullUrl": "urn:uuid:329c8c3f-461f-4b61-b93d-374d354d0c98",
    "resource": {
      "resourceType": "Observation",
      "meta": {
        "profile": [ "https://fhir.hl7.org.uk/StructureDefinition/UKCore-Observation-Group-Lab" ]
      },
      "identifier": [ {
        "system": "https://tools.ietf.org/html/rfc4122",
        "value": "4e505253-f4f4-4624-8348-e961ba157c88"
      } ],
      "status": "final",
      "category": [ {
        "coding": [ {
          "system": "http://terminology.hl7.org/CodeSystem/observation-category",
          "code": "laboratory",
          "display": "Laboratory"
        } ]
      } ],
      "code": {
        "coding": [ {
          "system": "http://snomed.info/sct",
          "code": "14788002",
          "display": "Antimicrobial susceptibility test"
        } ]
      },
      "subject": {
        "reference": "urn:uuid:ab87a3f8-1d37-44a9-804e-5e962598a6e4",
        "display": "MOXEY, Judy"
      },
      "issued": "2022-02-25T13:47:00+00:00",
      "performer": [ {
        "reference": "urn:uuid:8a6d85b8-9837-4fed-a257-4cf207988338",
        "display": "TD008362 PATH LAB 001"
      } ],
      "hasMember": [ {
        "reference": "urn:uuid:e3d50c0a-59c7-4269-b1a0-311b41a8af3c"
      }, {
        "reference": "urn:uuid:69c37610-5272-48f8-8e35-462d0ee1d541"
      }, {
        "reference": "urn:uuid:2138deb6-cc0e-44ba-becf-ce2538817fa1"
      } ]
    }
  }, {
    "fullUrl": "urn:uuid:e3d50c0a-59c7-4269-b1a0-311b41a8af3c",
    "resource": {
      "resourceType": "Observation",
      "meta": {
        "profile": [ "https://fhir.hl7.org.uk/StructureDefinition/UKCore-Observation-Lab" ]
      },
      "identifier": [ {
        "system": "https://tools.ietf.org/html/rfc4122",
        "value": "4fd65865-5e9f-4c86-b408-795c27d06449"
      } ],
      "status": "final",
      "category": [ {
        "coding": [ {
          "system": "http://terminology.hl7.org/CodeSystem/observation-category",
          "code": "laboratory",
          "display": "Laboratory"
        } ]
      } ],
      "code": {
        "coding": [ {
          "system": "http://snomed.info/sct",
          "code": "54151000237102",
          "display": "Organism susceptibility to flucloxacillin"
        } ]
      },
      "subject": {
        "reference": "urn:uuid:ab87a3f8-1d37-44a9-804e-5e962598a6e4",
        "display": "MOXEY, Judy"
      },
      "issued": "2022-02-25T13:47:00+00:00",
      "performer": [ {
        "reference": "urn:uuid:8a6d85b8-9837-4fed-a257-4cf207988338",
        "display": "TD008362 PATH LAB 001"
      } ],
      "valueCodeableConcept": {
        "coding": [ {
          "system": "http://snomed.info/sct",
          "code": "131196009",
          "display": "Susceptible"
        } ]
      },
      "specimen": {
        "reference": "urn:uuid:bde5b0a5-4fb3-4655-acf0-215b93aee006"
      }
    }
  }, {
    "fullUrl": "urn:uuid:69c37610-5272-48f8-8e35-462d0ee1d541",
    "resource": {
      "resourceType": "Observation",
      "meta": {
        "profile": [ "https://fhir.hl7.org.uk/StructureDefinition/UKCore-Observation-Lab" ]
      },
      "identifier": [ {
        "system": "https://tools.ietf.org/html/rfc4122",
        "value": "56f2ec6b-edd4-41a8-9a4c-4cbcb019b599"
      } ],
      "status": "final",
      "category": [ {
        "coding": [ {
          "system": "http://terminology.hl7.org/CodeSystem/observation-category",
          "code": "laboratory",
          "display": "Laboratory"
        } ]
      } ],
      "code": {
        "coding": [ {
          "system": "http://snomed.info/sct",
          "code": "53781000237107",
          "display": "Organism susceptibility to trimethoprim"
        } ]
      },
      "subject": {
        "reference": "urn:uuid:ab87a3f8-1d37-44a9-804e-5e962598a6e4",
        "display": "MOXEY, Judy"
      },
      "issued": "2022-02-25T13:47:00+00:00",
      "performer": [ {
        "reference": "urn:uuid:8a6d85b8-9837-4fed-a257-4cf207988338",
        "display": "TD008362 PATH LAB 001"
      } ],
      "valueCodeableConcept": {
        "coding": [ {
          "system": "http://snomed.info/sct",
          "code": "131196009",
          "display": "Susceptible"
        } ]
      },
      "specimen": {
        "reference": "urn:uuid:bde5b0a5-4fb3-4655-acf0-215b93aee006"
      }
    }
  }, {
    "fullUrl": "urn:uuid:2138deb6-cc0e-44ba-becf-ce2538817fa1",
    "resource": {
      "resourceType": "Observation",
      "meta": {
        "profile": [ "https://fhir.hl7.org.uk/StructureDefinition/UKCore-Observation-Lab" ]
      },
      "identifier": [ {
        "system": "https://tools.ietf.org/html/rfc4122",
        "value": "a8cde339-9608-4e33-b465-e06a711f11a5"
      } ],
      "status": "final",
      "category": [ {
        "coding": [ {
          "system": "http://terminology.hl7.org/CodeSystem/observation-category",
          "code": "laboratory",
          "display": "Laboratory"
        } ]
      } ],
      "code": {
        "coding": [ {
          "system": "http://snomed.info/sct",
          "code": "53851000237109",
          "display": "Organism susceptibility to nitrofurantoin"
        } ]
      },
      "subject": {
        "reference": "urn:uuid:ab87a3f8-1d37-44a9-804e-5e962598a6e4",
        "display": "MOXEY, Judy"
      },
      "issued": "2022-02-25T13:47:00+00:00",
      "performer": [ {
        "reference": "urn:uuid:8a6d85b8-9837-4fed-a257-4cf207988338",
        "display": "TD008362 PATH LAB 001"
      } ],
      "valueCodeableConcept": {
        "coding": [ {
          "system": "http://snomed.info/sct",
          "code": "30714006",
          "display": "Resistant"
        } ]
      },
      "specimen": {
        "reference": "urn:uuid:bde5b0a5-4fb3-4655-acf0-215b93aee006"
      }
    }
  } ]
}