{
  "resourceType": "Bundle",
  "id": "Pathology-Bundle-HbA1c-Request-Example",
  "meta": {
    "lastUpdated": "2022-01-29T10:24:00+00:00",
    "profile": [ "https://fhir.hl7.org.uk/StructureDefinition/UKCore-Bundle" ]
  },
  "identifier": {
    "system": "https://tools.ietf.org/html/rfc4122",
    "value": "a37a0ee9-7a32-47d0-a72f-876d6c26e540"
  },
  "type": "message",
  "entry": [ {
    "fullUrl": "urn:uuid:f18a2226-c0ab-480d-b80a-b6561fe8f9c4",
    "resource": {
      "resourceType": "MessageHeader",
      "meta": {
        "profile": [ "https://fhir.hl7.org.uk/StructureDefinition/UKCore-MessageHeader" ]
      },
      "eventCoding": {
        "system": "http://snomed.info/sct",
        "code": "371528001",
        "display": "Pathology report"
      },
      "destination": [ {
        "name": "TD008362 PATH LAB 001",
        "endpoint": "TBC",
        "receiver": {
          "reference": "urn:uuid:8a6d85b8-9837-4fed-a257-4cf207988338"
        }
      } ],
      "sender": {
        "reference": "urn:uuid:3c43b5b3-06d6-445f-ae9a-48d5f05df434"
      },
      "source": {
        "endpoint": "TBC"
      },
      "focus": [ {
        "reference": "urn:uuid:1c38d507-9ad7-4b49-ba91-7da204842cac"
      } ],
      "definition": "https://fhir.nhs.uk/England/MessageDefinition/England-Pathology-Request"
    }
  }, {
    "fullUrl": "urn:uuid:8a6d85b8-9837-4fed-a257-4cf207988338",
    "resource": {
      "resourceType": "Organization",
      "meta": {
        "profile": [ "https://fhir.hl7.org.uk/StructureDefinition/UKCore-Organization" ]
      },
      "identifier": [ {
        "system": "https://fhir.nhs.uk/Id/ods-organization-code",
        "value": "Y8J7D"
      } ],
      "name": "TD008362 PATH LAB 001",
      "address": [ {
        "line": [ "PATHOLOGY LAB", "7-8 WELLINGTON PLACE" ],
        "city": "LEEDS",
        "district": "WEST YORKSHIRE",
        "postalCode": "LS1 4AP"
      } ]
    }
  }, {
    "fullUrl": "urn:uuid:3c43b5b3-06d6-445f-ae9a-48d5f05df434",
    "resource": {
      "resourceType": "Organization",
      "meta": {
        "profile": [ "https://fhir.hl7.org.uk/StructureDefinition/UKCore-Organization" ]
      },
      "identifier": [ {
        "system": "https://fhir.nhs.uk/Id/ods-organization-code",
        "value": "B82033"
      } ],
      "name": "PICKERING MEDICAL PRACTICE",
      "address": [ {
        "line": [ "SOUTHGATE" ],
        "city": "PICKERING",
        "district": "NORTH YORKSHIRE",
        "postalCode": "YO18 8BL"
      } ]
    }
  }, {
    "fullUrl": "urn:uuid:9a835acf-d715-4d84-8dcf-a8435f6417fe",
    "resource": {
      "resourceType": "Practitioner",
      "meta": {
        "profile": [ "https://fhir.hl7.org.uk/StructureDefinition/UKCore-Practitioner" ]
      },
      "identifier": [ {
        "system": "https://fhir.nhs.uk/Id/sds-user-id",
        "value": "TBC"
      } ],
      "name": [ {
        "use": "official",
        "family": "GASKELL",
        "given": [ "Gale" ],
        "prefix": [ "Dr" ]
      } ]
    }
  }, {
    "fullUrl": "urn:uuid:ab87a3f8-1d37-44a9-804e-5e962598a6e4",
    "resource": {
      "resourceType": "Patient",
      "meta": {
        "profile": [ "https://fhir.hl7.org.uk/StructureDefinition/UKCore-Patient" ]
      },
      "identifier": [ {
        "extension": [ {
          "url": "https://fhir.hl7.org.uk/StructureDefinition/Extension-UKCore-NHSNumberVerificationStatus",
          "valueCodeableConcept": {
            "coding": [ {
              "system": "https://fhir.hl7.org.uk/CodeSystem/UKCore-NHSNumberVerificationStatusEngland",
              "code": "01",
              "display": "Number present and verified"
            } ]
          }
        } ],
        "system": "https://fhir.nhs.uk/Id/nhs-number",
        "value": "9727710638"
      } ],
      "name": [ {
        "use": "official",
        "family": "WELSH",
        "given": [ "Joel" ]
      } ],
      "gender": "male",
      "birthDate": "1972-08-23",
      "address": [ {
        "line": [ "ACONBURY", "LARPOOL DRIVE" ],
        "city": "WHITBY",
        "postalCode": "YO22 4ND"
      } ]
    }
  }, {
    "fullUrl": "urn:uuid:1c38d507-9ad7-4b49-ba91-7da204842cac",
    "resource": {
      "resourceType": "ServiceRequest",
      "meta": {
        "profile": [ "https://fhir.hl7.org.uk/StructureDefinition/UKCore-ServiceRequest-Lab" ]
      },
      "identifier": [ {
        "system": "http://B82033-pickeringmedicalpractice.com/labrequest",
        "value": "REQ-20220129-000241"
      } ],
      "status": "active",
      "intent": "order",
      "code": {
        "coding": [ {
          "system": "http://snomed.info/sct",
          "code": "43396009",
          "display": "Haemoglobin A1c measurement"
        } ]
      },
      "subject": {
        "reference": "urn:uuid:ab87a3f8-1d37-44a9-804e-5e962598a6e4",
        "display": "WELSH, Joel"
      },
      "authoredOn": "2022-01-29T10:24:00+00:00",
      "requester": {
        "reference": "urn:uuid:9a835acf-d715-4d84-8dcf-a8435f6417fe",
        "display": "GASKELL, Dr Gale"
      },
      "performer": [ {
        "reference": "urn:uuid:8a6d85b8-9837-4fed-a257-4cf207988338",
        "display": "TD008362 PATH LAB 001"
      } ],
      "specimen": [ {
        "reference": "urn:uuid:bab0eaec-1ec5-4598-b660-90bb38a1030d"
      } ]
    }
  }, {
    "fullUrl": "urn:uuid:bab0eaec-1ec5-4598-b660-90bb38a1030d",
    "resource": {
      "resourceType": "Specimen",
      "meta": {
        "profile": [ "https://fhir.hl7.org.uk/StructureDefinition/UKCore-Specimen" ]
      },
      "identifier": [ {
        "system": "http://B82033-pickeringmedicalpractice.com/specimen",
        "value": "SPC-REQ-20220129-000362"
      } ],
      "status": "available",
      "type": {
        "coding": [ {
          "system": "http://snomed.info/sct",
          "code": "122555007",
          "display": "Venous blood specimen"
        } ]
      },
      "subject": {
        "reference": "urn:uuid:ab87a3f8-1d37-44a9-804e-5e962598a6e4",
        "display": "WELSH, Joel"
      },
      "collection": {
        "collectedDateTime": "2022-01-29T10:18:00+00:00"
      }
    }
  } ]
}