{
  "resourceType": "Bundle",
  "id": "Pathology-Bundle-GTT-Report-Example",
  "meta": {
    "lastUpdated": "2022-02-10T11:49:00+00:00",
    "profile": [ "https://fhir.hl7.org.uk/StructureDefinition/UKCore-Bundle" ]
  },
  "identifier": {
    "system": "https://tools.ietf.org/html/rfc4122",
    "value": "ee9f668a-020b-480f-9e52-8f4ec29f97bf"
  },
  "type": "message",
  "entry": [ {
    "fullUrl": "urn:uuid:324d9589-21eb-4852-af10-b8a656105b10",
    "resource": {
      "resourceType": "MessageHeader",
      "meta": {
        "profile": [ "https://fhir.hl7.org.uk/StructureDefinition/UKCore-MessageHeader" ]
      },
      "eventCoding": {
        "system": "http://snomed.info/sct",
        "code": "371528001",
        "display": "Pathology report"
      },
      "destination": [ {
        "name": "PICKERING MEDICAL PRACTICE",
        "endpoint": "TBC",
        "receiver": {
          "reference": "urn:uuid:3c43b5b3-06d6-445f-ae9a-48d5f05df434"
        }
      } ],
      "sender": {
        "reference": "urn:uuid:8a6d85b8-9837-4fed-a257-4cf207988338"
      },
      "source": {
        "endpoint": "TBC"
      },
      "focus": [ {
        "reference": "urn:uuid:35d46ca1-f253-4c97-b7ee-fb5fccdf6c20"
      } ],
      "definition": "https://fhir.nhs.uk/England/MessageDefinition/England-Pathology-Report"
    }
  }, {
    "fullUrl": "urn:uuid:8a6d85b8-9837-4fed-a257-4cf207988338",
    "resource": {
      "resourceType": "Organization",
      "meta": {
        "profile": [ "https://fhir.hl7.org.uk/StructureDefinition/UKCore-Organization" ]
      },
      "identifier": [ {
        "system": "https://fhir.nhs.uk/Id/ods-organization-code",
        "value": "Y8J7D"
      } ],
      "name": "TD008362 PATH LAB 001",
      "address": [ {
        "line": [ "PATHOLOGY LAB", "7-8 WELLINGTON PLACE" ],
        "city": "LEEDS",
        "district": "WEST YORKSHIRE",
        "postalCode": "LS1 4AP"
      } ]
    }
  }, {
    "fullUrl": "urn:uuid:3c43b5b3-06d6-445f-ae9a-48d5f05df434",
    "resource": {
      "resourceType": "Organization",
      "meta": {
        "profile": [ "https://fhir.hl7.org.uk/StructureDefinition/UKCore-Organization" ]
      },
      "identifier": [ {
        "system": "https://fhir.nhs.uk/Id/ods-organization-code",
        "value": "B82033"
      } ],
      "name": "PICKERING MEDICAL PRACTICE",
      "address": [ {
        "line": [ "SOUTHGATE" ],
        "city": "PICKERING",
        "district": "NORTH YORKSHIRE",
        "postalCode": "YO18 8BL"
      } ]
    }
  }, {
    "fullUrl": "urn:uuid:9a835acf-d715-4d84-8dcf-a8435f6417fe",
    "resource": {
      "resourceType": "Practitioner",
      "meta": {
        "profile": [ "https://fhir.hl7.org.uk/StructureDefinition/UKCore-Practitioner" ]
      },
      "identifier": [ {
        "system": "https://fhir.nhs.uk/Id/sds-user-id",
        "value": "TBC"
      } ],
      "name": [ {
        "use": "official",
        "family": "GASKELL",
        "given": [ "Gale" ],
        "prefix": [ "Dr" ]
      } ]
    }
  }, {
    "fullUrl": "urn:uuid:ab87a3f8-1d37-44a9-804e-5e962598a6e4",
    "resource": {
      "resourceType": "Patient",
      "meta": {
        "profile": [ "https://fhir.hl7.org.uk/StructureDefinition/UKCore-Patient" ]
      },
      "identifier": [ {
        "extension": [ {
          "url": "https://fhir.hl7.org.uk/StructureDefinition/Extension-UKCore-NHSNumberVerificationStatus",
          "valueCodeableConcept": {
            "coding": [ {
              "system": "https://fhir.hl7.org.uk/CodeSystem/UKCore-NHSNumberVerificationStatusEngland",
              "code": "01",
              "display": "Number present and verified"
            } ]
          }
        } ],
        "system": "https://fhir.nhs.uk/Id/nhs-number",
        "value": "9727710859"
      } ],
      "name": [ {
        "use": "official",
        "family": "MOXEY",
        "given": [ "Judy" ]
      } ],
      "gender": "female",
      "birthDate": "2004-05-06",
      "address": [ {
        "line": [ "1 CASTLEGATE" ],
        "city": "PICKERING",
        "district": "NORTH YORKSHIRE",
        "postalCode": "YO18 7AY"
      } ]
    }
  }, {
    "fullUrl": "urn:uuid:1c38d507-9ad7-4b49-ba91-7da204842cac",
    "resource": {
      "resourceType": "ServiceRequest",
      "meta": {
        "profile": [ "https://fhir.hl7.org.uk/StructureDefinition/UKCore-ServiceRequest-Lab" ]
      },
      "identifier": [ {
        "system": "http://B82033-pickeringmedicalpractice.com/labrequest",
        "value": "REQ-20220207-000013"
      } ],
      "status": "active",
      "intent": "order",
      "code": {
        "coding": [ {
          "system": "http://snomed.info/sct",
          "code": "113076002",
          "display": "Glucose tolerance test"
        } ]
      },
      "subject": {
        "reference": "urn:uuid:ab87a3f8-1d37-44a9-804e-5e962598a6e4",
        "display": "MOXEY, Judy"
      },
      "authoredOn": "2022-02-07T09:20:00+00:00",
      "requester": {
        "reference": "urn:uuid:9a835acf-d715-4d84-8dcf-a8435f6417fe",
        "display": "GASKELL, Dr Gale"
      },
      "performer": [ {
        "reference": "urn:uuid:8a6d85b8-9837-4fed-a257-4cf207988338",
        "display": "TD008362 PATH LAB 001"
      } ]
    }
  }, {
    "fullUrl": "urn:uuid:35d46ca1-f253-4c97-b7ee-fb5fccdf6c20",
    "resource": {
      "resourceType": "DiagnosticReport",
      "meta": {
        "profile": [ "https://fhir.hl7.org.uk/StructureDefinition/UKCore-DiagnosticReport-Lab" ]
      },
      "identifier": [ {
        "system": "http://Y8J7D-pathlab001.com/report",
        "value": "REP-20220210-000218"
      } ],
      "basedOn": [ {
        "reference": "urn:uuid:1c38d507-9ad7-4b49-ba91-7da204842cac"
      } ],
      "status": "final",
      "category": [ {
        "coding": [ {
          "system": "http://terminology.hl7.org/CodeSystem/v2-0074",
          "code": "LAB",
          "display": "Laboratory"
        } ]
      } ],
      "code": {
        "coding": [ {
          "system": "http://snomed.info/sct",
          "code": "721981007",
          "display": "Diagnostic studies report"
        } ]
      },
      "subject": {
        "reference": "urn:uuid:ab87a3f8-1d37-44a9-804e-5e962598a6e4",
        "display": "MOXEY, Judy"
      },
      "issued": "2022-02-10T11:49:00+00:00",
      "performer": [ {
        "reference": "urn:uuid:8a6d85b8-9837-4fed-a257-4cf207988338",
        "display": "TD008362 PATH LAB 001"
      } ],
      "specimen": [ {
        "reference": "urn:uuid:bcee569d-c37d-4901-90b4-c9f27c4dafab"
      }, {
        "reference": "urn:uuid:45f1e625-9af2-4920-9ac4-63b4d9d30bd0"
      }, {
        "reference": "urn:uuid:ad717ae8-cb35-4d66-ba51-e22a76b1d158"
      } ],
      "result": [ {
        "reference": "urn:uuid:2a48660b-8d45-4735-acaa-3d9918b6b902"
      } ],
      "conclusion": "Fasting glucose below 5.1, 1hr below 10.0 and 2hr below 8.5 mmol/L. Normal response to glucose load, no further action required."
    }
  }, {
    "fullUrl": "urn:uuid:bcee569d-c37d-4901-90b4-c9f27c4dafab",
    "resource": {
      "resourceType": "Specimen",
      "meta": {
        "profile": [ "https://fhir.hl7.org.uk/StructureDefinition/UKCore-Specimen" ]
      },
      "identifier": [ {
        "system": "http://B82033-pickeringmedicalpractice.com/specimen",
        "value": "SPC-REQ-20220209-000082"
      } ],
      "accessionIdentifier": {
        "system": "http://Y8J7D-pathlab001.com/specimen",
        "value": "SPC-LAB-20220209-001531"
      },
      "status": "available",
      "type": {
        "coding": [ {
          "system": "http://snomed.info/sct",
          "code": "122555007",
          "display": "Venous blood specimen"
        } ]
      },
      "subject": {
        "reference": "urn:uuid:ab87a3f8-1d37-44a9-804e-5e962598a6e4",
        "display": "MOXEY, Judy"
      },
      "receivedTime": "2022-02-09T14:17:06+00:00",
      "request": [ {
        "reference": "urn:uuid:1c38d507-9ad7-4b49-ba91-7da204842cac"
      } ],
      "collection": {
        "collectedDateTime": "2022-02-09T10:01:23+00:00",
        "fastingStatusCodeableConcept": {
          "coding": [ {
            "system": "http://terminology.hl7.org/CodeSystem/v2-0916",
            "code": "F",
            "display": "Patient was fasting prior to the procedure."
          } ]
        }
      }
    }
  }, {
    "fullUrl": "urn:uuid:45f1e625-9af2-4920-9ac4-63b4d9d30bd0",
    "resource": {
      "resourceType": "Specimen",
      "meta": {
        "profile": [ "https://fhir.hl7.org.uk/StructureDefinition/UKCore-Specimen" ]
      },
      "identifier": [ {
        "system": "http://B82033-pickeringmedicalpractice.com/specimen",
        "value": "SPC-REQ-20220209-000083"
      } ],
      "accessionIdentifier": {
        "system": "http://Y8J7D-pathlab001.com/specimen",
        "value": "SPC-LAB-20220209-001549"
      },
      "status": "available",
      "type": {
        "coding": [ {
          "system": "http://snomed.info/sct",
          "code": "122555007",
          "display": "Venous blood specimen"
        } ]
      },
      "subject": {
        "reference": "urn:uuid:ab87a3f8-1d37-44a9-804e-5e962598a6e4",
        "display": "MOXEY, Judy"
      },
      "receivedTime": "2022-02-09T14:17:06+00:00",
      "request": [ {
        "reference": "urn:uuid:1c38d507-9ad7-4b49-ba91-7da204842cac"
      } ],
      "collection": {
        "collectedDateTime": "2022-02-09T11:03:07+00:00"
      }
    }
  }, {
    "fullUrl": "urn:uuid:ad717ae8-cb35-4d66-ba51-e22a76b1d158",
    "resource": {
      "resourceType": "Specimen",
      "meta": {
        "profile": [ "https://fhir.hl7.org.uk/StructureDefinition/UKCore-Specimen" ]
      },
      "identifier": [ {
        "system": "http://B82033-pickeringmedicalpractice.com/specimen",
        "value": "SPC-REQ-20220209-000084"
      } ],
      "accessionIdentifier": {
        "system": "http://Y8J7D-pathlab001.com/specimen",
        "value": "SPC-LAB-20220209-001587"
      },
      "status": "available",
      "type": {
        "coding": [ {
          "system": "http://snomed.info/sct",
          "code": "122555007",
          "display": "Venous blood specimen"
        } ]
      },
      "subject": {
        "reference": "urn:uuid:ab87a3f8-1d37-44a9-804e-5e962598a6e4",
        "display": "MOXEY, Judy"
      },
      "receivedTime": "2022-02-09T14:17:06+00:00",
      "request": [ {
        "reference": "urn:uuid:1c38d507-9ad7-4b49-ba91-7da204842cac"
      } ],
      "collection": {
        "collectedDateTime": "2022-02-09T12:02:17+00:00"
      }
    }
  }, {
    "fullUrl": "urn:uuid:2a48660b-8d45-4735-acaa-3d9918b6b902",
    "resource": {
      "resourceType": "Observation",
      "meta": {
        "profile": [ "https://fhir.hl7.org.uk/StructureDefinition/UKCore-Observation-Group-Lab" ]
      },
      "identifier": [ {
        "system": "https://tools.ietf.org/html/rfc4122",
        "value": "df8fcad2-12f5-4f04-8b73-91dadc3120b9"
      } ],
      "status": "final",
      "category": [ {
        "coding": [ {
          "system": "http://terminology.hl7.org/CodeSystem/observation-category",
          "code": "laboratory",
          "display": "Laboratory"
        } ]
      } ],
      "code": {
        "coding": [ {
          "system": "http://snomed.info/sct",
          "code": "113076002",
          "display": "Glucose tolerance test"
        } ]
      },
      "subject": {
        "reference": "urn:uuid:ab87a3f8-1d37-44a9-804e-5e962598a6e4",
        "display": "MOXEY, Judy"
      },
      "issued": "2022-02-10T11:49:00+00:00",
      "performer": [ {
        "reference": "urn:uuid:8a6d85b8-9837-4fed-a257-4cf207988338",
        "display": "TD008362 PATH LAB 001"
      } ],
      "hasMember": [ {
        "reference": "urn:uuid:6b64af83-2ea2-4b0f-a6a7-17e5a7b27a31"
      }, {
        "reference": "urn:uuid:1dbcb7a9-4506-40f9-9908-fa0d32deeaa4"
      }, {
        "reference": "urn:uuid:1346248c-8c09-4312-a0b9-898de1cc16f5"
      } ]
    }
  }, {
    "fullUrl": "urn:uuid:6b64af83-2ea2-4b0f-a6a7-17e5a7b27a31",
    "resource": {
      "resourceType": "Observation",
      "meta": {
        "profile": [ "https://fhir.hl7.org.uk/StructureDefinition/UKCore-Observation-Lab" ]
      },
      "identifier": [ {
        "system": "https://tools.ietf.org/html/rfc4122",
        "value": "ba7fa6e0-2170-4905-ac9f-e53970b17aed"
      } ],
      "status": "final",
      "category": [ {
        "coding": [ {
          "system": "http://terminology.hl7.org/CodeSystem/observation-category",
          "code": "laboratory",
          "display": "Laboratory"
        } ]
      } ],
      "code": {
        "coding": [ {
          "system": "http://snomed.info/sct",
          "code": "1107451000000100",
          "display": "Glucose substance concentration in serum"
        } ]
      },
      "subject": {
        "reference": "urn:uuid:ab87a3f8-1d37-44a9-804e-5e962598a6e4",
        "display": "MOXEY, Judy"
      },
      "effectiveDateTime": "2022-02-09T10:01:23+00:00",
      "issued": "2022-02-10T11:49:00+00:00",
      "performer": [ {
        "reference": "urn:uuid:8a6d85b8-9837-4fed-a257-4cf207988338",
        "display": "TD008362 PATH LAB 001"
      } ],
      "valueQuantity": {
        "value": 4.8,
        "unit": "mmol/L",
        "system": "http://unitsofmeasure.org",
        "code": "mmol/L"
      },
      "specimen": {
        "reference": "urn:uuid:bcee569d-c37d-4901-90b4-c9f27c4dafab"
      },
      "component": [ {
        "code": {
          "coding": [ {
            "system": "http://snomed.info/sct",
            "code": "118578006",
            "display": "Relative time"
          } ]
        },
        "valueQuantity": {
          "value": 0,
          "unit": "min",
          "system": "http://unitsofmeasure.org",
          "code": "min"
        }
      } ]
    }
  }, {
    "fullUrl": "urn:uuid:1dbcb7a9-4506-40f9-9908-fa0d32deeaa4",
    "resource": {
      "resourceType": "Observation",
      "meta": {
        "profile": [ "https://fhir.hl7.org.uk/StructureDefinition/UKCore-Observation-Lab" ]
      },
      "extension": [ {
        "url": "http://hl7.org/fhir/StructureDefinition/observation-sequelTo",
        "valueReference": {
          "reference": "urn:uuid:6b64af83-2ea2-4b0f-a6a7-17e5a7b27a31"
        }
      } ],
      "identifier": [ {
        "system": "https://tools.ietf.org/html/rfc4122",
        "value": "9e1f413b-8242-4e37-b23c-233be79e75a6"
      } ],
      "status": "final",
      "category": [ {
        "coding": [ {
          "system": "http://terminology.hl7.org/CodeSystem/observation-category",
          "code": "laboratory",
          "display": "Laboratory"
        } ]
      } ],
      "code": {
        "coding": [ {
          "system": "http://snomed.info/sct",
          "code": "1107451000000100",
          "display": "Glucose substance concentration in serum"
        } ]
      },
      "subject": {
        "reference": "urn:uuid:ab87a3f8-1d37-44a9-804e-5e962598a6e4",
        "display": "MOXEY, Judy"
      },
      "effectiveDateTime": "2022-02-09T11:03:07+00:00",
      "issued": "2022-02-10T11:49:00+00:00",
      "performer": [ {
        "reference": "urn:uuid:8a6d85b8-9837-4fed-a257-4cf207988338",
        "display": "TD008362 PATH LAB 001"
      } ],
      "valueQuantity": {
        "value": 8.8,
        "unit": "mmol/L",
        "system": "http://unitsofmeasure.org",
        "code": "mmol/L"
      },
      "specimen": {
        "reference": "urn:uuid:45f1e625-9af2-4920-9ac4-63b4d9d30bd0"
      },
      "component": [ {
        "code": {
          "coding": [ {
            "system": "http://snomed.info/sct",
            "code": "118578006",
            "display": "Relative time"
          } ]
        },
        "valueQuantity": {
          "value": 60,
          "unit": "min",
          "system": "http://unitsofmeasure.org",
          "code": "min"
        }
      } ]
    }
  }, {
    "fullUrl": "urn:uuid:1346248c-8c09-4312-a0b9-898de1cc16f5",
    "resource": {
      "resourceType": "Observation",
      "meta": {
        "profile": [ "https://fhir.hl7.org.uk/StructureDefinition/UKCore-Observation-Lab" ]
      },
      "extension": [ {
        "url": "http://hl7.org/fhir/StructureDefinition/observation-sequelTo",
        "valueReference": {
          "reference": "urn:uuid:1dbcb7a9-4506-40f9-9908-fa0d32deeaa4"
        }
      } ],
      "identifier": [ {
        "system": "https://tools.ietf.org/html/rfc4122",
        "value": "4c66b23a-5c91-49fb-85b1-5073a88afc25"
      } ],
      "status": "final",
      "category": [ {
        "coding": [ {
          "system": "http://terminology.hl7.org/CodeSystem/observation-category",
          "code": "laboratory",
          "display": "Laboratory"
        } ]
      } ],
      "code": {
        "coding": [ {
          "system": "http://snomed.info/sct",
          "code": "1107451000000100",
          "display": "Glucose substance concentration in serum"
        } ]
      },
      "subject": {
        "reference": "urn:uuid:ab87a3f8-1d37-44a9-804e-5e962598a6e4",
        "display": "MOXEY, Judy"
      },
      "effectiveDateTime": "2022-02-09T12:02:17+00:00",
      "issued": "2022-02-10T11:49:00+00:00",
      "performer": [ {
        "reference": "urn:uuid:8a6d85b8-9837-4fed-a257-4cf207988338",
        "display": "TD008362 PATH LAB 001"
      } ],
      "valueQuantity": {
        "value": 6.4,
        "unit": "mmol/L",
        "system": "http://unitsofmeasure.org",
        "code": "mmol/L"
      },
      "specimen": {
        "reference": "urn:uuid:ad717ae8-cb35-4d66-ba51-e22a76b1d158"
      },
      "component": [ {
        "code": {
          "coding": [ {
            "system": "http://snomed.info/sct",
            "code": "118578006",
            "display": "Relative time"
          } ]
        },
        "valueQuantity": {
          "value": 120,
          "unit": "min",
          "system": "http://unitsofmeasure.org",
          "code": "min"
        }
      } ]
    }
  } ]
}